File: Data/fp_activity.csv
,VOC,JSC,FF,PCE
0,687.0,10.79,0.7,5.19
8,695.0,12.2,0.74,6.2
10,560.0,3.41,0.73,1.39
12,600.0,4.03,0.73,1.77
14,580.0,3.33,0.73,1.41
17,340.0,2.7,0.63,0.6
19,480.0,12.8,0.6,3.7
23,500.0,9.4,0.65,3.1
26,410.0,4.1,0.56,0.9
29,700.0,14.3,0.64,6.4
35,540.0,14.7,0.49,3.9
49,690.0,9.79,0.71,4.78
51,660.0,7.72,0.71,3.62
53,704.0,4.57,0.724,2.33
58,756.0,8.98,0.69,4.66
62,560.0,13.3,0.68,5.03
64,620.0,10.5,0.57,3.73
68,610.0,16.5,0.76,7.6
84,620.0,15.5,0.7,6.7
95,510.0,11.1,0.6,3.4
101,670.0,14.7,0.73,7.2
103,501.0,2.082,0.614,0.64
105,470.0,1.912,0.69,0.581
107,490.0,0.936,0.651,0.299
110,561.0,10.5,0.68,4.02
114,590.0,12.91,0.61,4.59
118,710.0,10.4,0.74,5.5
122,710.0,12.9,0.74,6.8
126,588.0,5.09,0.735,2.2
132,760.0,10.4,0.72,5.2
134,731.0,7.5,0.71,3.5
142,620.0,10.94,0.7,4.7
144,610.0,12.97,0.64,5.06
147,690.0,14.33,0.63,6.24
149,710.0,4.12,0.71,1.65
154,690.0,12.16,0.69,4.68
163,609.0,9.83,0.7,5.02
165,874.0,7.85,0.71,3.87
174,700.0,14.5,0.69,7.3
176,741.0,3.76,0.77,1.79
178,675.0,12.52,0.676,5.6
182,580.0,13.75,0.69,5.52
184,730.0,12.08,0.69,5.07
186,792.0,10.2,0.65,5.1
188,660.0,9.73,0.72,5.4
190,627.0,7.37,0.686,3.29
192,632.0,4.85,0.735,2.36
194,673.0,2.43,0.711,1.2
196,830.0,13.33,0.62,6.87
198,800.0,13.03,0.67,6.98
204,540.0,3.64,0.65,1.29
206,425.0,1.57,0.635,0.4
208,575.0,1.28,0.58,0.5
210,698.0,3.87,0.65,1.8
212,638.0,3.33,0.57,1.2
214,627.0,1.77,0.59,0.6
217,818.5,9.23,0.7597,5.74
219,781.7,10.2,0.755,6.02
221,734.0,13.01,0.68,6.49
224,705.0,12.63,0.69,6.14
226,710.0,12.96,0.71,6.63
228,606.0,15.864,0.6287,6.04
230,690.0,9.36,0.69,4.47
232,708.0,11.69,0.653,5.4
235,635.0,6.71,0.66,2.83
242,702.0,13.1,0.748,6.9
245,440.0,5.6,0.738,1.8
249,740.0,6.98,0.69,3.56
251,628.0,6.94,0.75,3.26
253,720.0,11.1,0.749,6.0
256,680.0,11.19,0.6497,4.97
260,714.0,13.2,0.768,7.3
262,640.0,14.23,0.719,6.6
269,680.0,14.82,0.68,6.85
272,720.0,11.07,0.7,5.55
275,744.0,12.58,0.71,6.6
279,677.0,11.28,0.69,5.23
281,633.0,12.35,0.66,5.12
283,510.0,7.06,0.67,2.43
285,762.0,13.54,0.69,7.1
287,768.0,11.2,0.75,6.53
289,584.0,9.43,0.69,3.78
291,505.0,7.39,0.68,2.48
296,670.0,13.66,0.61,5.6
299,710.0,11.65,0.63,5.22
301,710.0,11.12,0.61,4.8
307,650.0,11.79,0.651,5.02
309,775.0,15.32,0.689,8.18
311,716.0,12.08,0.68,5.87
313,829.0,12.38,0.655,6.72
315,742.0,9.68,0.713,5.12
318,660.0,4.83,0.74,2.4
326,680.0,12.91,0.62,5.45
328,793.0,10.76,0.64,5.51
330,804.0,11.41,0.63,5.76
332,759.0,11.82,0.65,5.84
335,759.0,12.2,0.58,5.3
337,755.0,11.68,0.6,5.25
342,672.0,12.01,0.696,5.62
344,746.0,16.65,0.642,7.98
346,802.0,10.35,0.69,5.73
348,785.0,8.65,0.71,4.79
353,682.0,14.43,0.69,6.79
355,635.0,10.86,0.71,4.9
357,709.0,6.13,0.67,2.91
364,745.7,11.68,0.6995,6.09
366,771.7,12.18,0.7002,6.58
370,650.0,8.03,0.75,3.88
372,587.0,4.45,0.7,1.83
378,753.0,7.11,0.65,4.33
382,830.0,12.69,0.69,7.33
385,830.0,13.56,0.7,7.88
397,673.0,12.76,0.62,5.31
399,642.0,14.79,0.57,5.42
404,774.0,12.9,0.7,7.0
406,720.0,12.07,0.685,6.0
408,726.0,11.56,0.719,6.0
410,645.0,14.71,0.673,6.4
412,697.0,12.52,0.68,5.93
414,681.0,11.96,0.6015,4.9
423,610.0,8.94,0.68,3.66
425,760.0,16.67,0.66,8.42
427,620.0,10.75,0.67,4.51
435,690.0,10.11,0.7223,5.09
437,390.0,14.4,0.54,3.0
441,646.1,7.47,0.69,3.31
445,622.3,13.08,0.64,5.17
451,653.0,11.72,0.6876,5.26
453,639.9,11.35,0.6709,4.87
458,652.0,8.65,0.63,3.55
470,820.0,11.63,0.68,6.49
473,850.0,13.9,0.71,8.36
475,690.0,9.64,0.6,4.01
478,730.0,11.1,0.78,6.3
487,669.0,13.35,0.62,5.53
489,580.0,3.2,0.69,1.3
491,664.0,7.07,0.66,3.1
493,648.0,10.03,0.66,4.38
495,548.0,2.37,0.695,0.9
498,704.0,9.62,0.671,4.55
501,740.0,15.22,0.69,7.78
504,740.0,11.46,0.69,5.88
514,705.0,12.6,0.63,5.6
516,599.0,10.47,0.64,4.01
518,739.0,15.69,0.69,7.94
520,590.0,13.64,0.66,5.31
522,580.0,11.85,0.67,4.61
524,738.1,10.2,0.6881,5.2
528,796.0,12.49,0.748,7.44
530,814.0,11.38,0.726,6.72
533,695.0,8.817,0.68,4.03
536,558.0,2.73,0.7346,1.12
538,700.0,9.95,0.64,4.4
541,730.0,12.63,0.6175,5.64
543,739.0,14.68,0.68,7.11
545,713.0,15.99,0.66,7.55
551,780.0,13.84,0.71,7.66
553,780.0,11.86,0.73,6.75
555,670.0,9.33,0.73,4.56
557,745.0,14.2,0.71,7.56
559,705.0,14.0,0.69,6.82
561,528.5,4.8,0.5935,1.5
563,710.0,11.44,0.69,5.6
566,548.0,11.82,0.7,4.52
569,640.0,13.7,0.752,6.61
572,690.0,10.54,0.63,4.63
574,590.0,12.16,0.68,4.89
576,500.0,6.46,0.71,2.28
578,756.0,12.26,0.66,6.14
580,705.0,10.92,0.68,5.25
583,719.0,9.67,0.72,5.0
585,650.0,6.89,0.73,3.28
587,658.0,10.6,0.7,4.91
589,640.0,13.5,0.66,5.7
591,661.0,6.7,0.64,2.82
593,688.0,15.4,0.62,6.56
595,680.0,15.92,0.74,8.01
600,690.0,11.5,0.69,5.52
603,680.0,12.23,0.64,5.34
605,695.0,8.713,0.68,4.0
607,546.0,10.91,0.61,3.61
609,720.0,15.5,0.69,7.7
611,820.0,11.57,0.6826,6.7
619,846.0,21.3,0.58,10.45
621,773.0,9.2,0.6,4.27
623,757.0,2.9,0.59,1.3
628,1041.0,6.17,0.7,3.4
631,710.0,5.04,0.72,2.54
633,770.0,1.712,0.641,0.695
635,547.0,4.31,0.692,1.63
638,680.0,8.58,0.699,4.08
641,666.0,9.7,0.68,4.8
643,612.0,9.94,0.69,4.82
645,740.0,5.72,0.48,2.03
650,630.0,4.0,0.796,3.68
656,562.0,8.25,0.64,2.98
658,616.0,16.2,0.61,6.1
660,760.0,7.09,0.71,3.9
662,770.0,7.11,0.73,4.0
667,628.0,19.3,0.59,7.2
670,680.0,4.39,0.71,2.15
672,670.0,4.18,0.74,2.09
676,680.0,13.1,0.73,6.5
678,700.0,15.5,0.62,6.7
680,710.0,10.34,0.51,3.6
682,701.0,14.8,0.63,6.48
684,460.0,4.52,0.44,0.9
686,320.0,1.85,0.67,0.39
689,780.0,6.08,0.68,3.2
691,660.0,4.55,0.58,1.8
697,770.0,7.06,0.74,4.0
699,635.0,9.98,0.66,4.22
701,601.0,15.78,0.64,6.04
703,750.0,9.9,0.67,4.97
706,740.0,10.41,0.46,3.54
710,740.0,14.0,0.74,7.7
716,720.0,10.9,0.71,5.6
718,674.0,4.2,0.66,1.88
720,682.0,4.55,0.69,2.14
723,762.0,7.51,0.76,4.35
725,750.0,8.59,0.71,4.57
727,760.0,8.47,0.7,4.54
729,630.0,11.27,0.61,4.35
731,700.0,9.14,0.63,4.05
735,621.0,6.2,0.67,2.6
738,766.0,5.18,0.5081,2.37
742,712.0,9.36,0.67,4.47
745,600.0,11.74,0.63,4.41
747,640.0,10.63,0.67,4.55
749,610.0,12.66,0.62,4.82
752,540.0,6.84,0.73,2.68
754,540.0,6.3,0.76,2.58
756,615.0,7.4,0.66,3.0
758,538.0,3.33,0.688,1.23
760,461.0,0.69,0.59,0.19
762,577.0,9.06,0.679,3.55
764,634.0,14.6,0.62,5.76
770,757.0,14.1,0.71,7.58
772,745.0,15.2,0.71,8.09
774,744.0,14.8,0.68,7.54
776,729.0,12.4,0.66,6.01
778,620.0,4.04,0.6385,1.59
780,690.0,7.05,0.5265,2.56
783,643.0,10.65,0.71,4.86
785,589.0,6.7,0.74,2.94
788,742.0,18.75,0.41,6.71
792,547.0,1.35,0.728,0.54
794,650.0,9.32,0.7,4.24
797,680.0,9.8,0.69,4.6
800,610.0,10.5,0.65,4.2
803,629.0,13.05,0.69,5.66
805,450.0,0.75,0.629,0.22
807,400.0,0.24,0.614,0.06
810,529.0,2.27,0.59,0.82
813,596.0,11.5,0.61,4.2
816,540.0,5.2,0.62,1.7
818,13.4,700.0,0.68,6.4
820,448.0,2.99,0.67,0.89
822,568.0,5.16,0.62,1.81
824,540.0,5.8,0.6,1.89
826,524.0,3.16,0.63,1.04
830,503.0,2.96,0.61,0.91
839,540.0,6.94,0.62,2.34
841,590.0,6.66,0.7,2.75
843,670.0,6.95,0.75,3.48
845,688.0,14.28,0.69,7.0
847,700.0,10.3,0.68,4.9
851,887.0,14.78,0.749,9.8
854,940.0,5.69,0.7,3.76
862,565.0,6.0,0.648,2.2
864,520.0,9.8,0.633,3.23
866,1036.0,15.6,0.774,12.5
872,821.0,15.1,0.752,9.32
876,12.8,450.0,0.59,3.39
878,665.0,11.3,0.69,5.21
880,710.0,11.46,0.68,6.16
882,720.0,11.47,0.67,5.87
884,600.0,5.84,0.62,2.17
886,680.0,10.41,0.6,4.27
888,353.0,7.53,0.57,1.52
890,844.0,10.18,0.776,6.7
892,660.0,6.4,0.71,3.0
894,120.0,0.12,0.42,0.0058
896,660.0,10.52,0.69,4.78
898,660.0,7.21,0.71,3.38
901,335.0,1.08,0.53,0.19
904,580.0,8.1,0.68,3.2
906,756.0,9.54,0.62,4.45
912,642.0,5.96,0.705,2.7
915,545.0,3.6,0.71,1.39
917,545.0,8.8,0.71,3.41
920,597.0,3.88,0.63,1.73
922,565.1,4.62,0.745,1.95
927,381.8,1.13,0.693,0.3
930,598.3,4.53,0.751,2.03
932,720.0,12.86,0.72,6.65
934,319.0,0.68,0.51,0.11
937,640.0,9.2,0.66,4.1
939,542.0,5.88,0.64,2.04
941,485.0,5.28,0.62,1.51
943,416.0,1.51,0.5,0.31
953,610.0,7.5,0.707,3.23
955,516.0,1.99,0.61,0.62
957,445.0,0.56,0.58,0.14
959,564.0,5.65,0.62,1.97
962,370.0,0.14,0.5,0.03
965,390.0,0.18,0.53,0.04
969,535.0,8.2,0.624,2.7
976,543.0,6.99,0.62,2.35
980,514.0,6.87,0.66,2.34
987,597.0,12.0,0.63,4.53
991,522.0,8.84,0.63,2.92
995,568.0,8.54,0.67,3.27
998,385.0,5.76,0.55,1.23
1000,665.0,11.04,0.72,5.27
1003,592.0,14.64,0.68,5.85
1005,690.0,13.54,0.71,6.67
1008,583.0,8.48,0.64,3.17
1017,722.0,13.69,0.68,6.71
1019,329.0,9.48,0.64,2.0
1021,600.0,5.2,0.64,2.03
1024,580.0,12.9,0.67,5.01
1026,453.0,5.62,0.7,1.79
1028,549.0,10.9,0.68,4.06
1030,583.0,6.49,0.68,2.58
1032,655.0,7.08,0.67,3.12
1035,581.0,1.253,0.6345,0.54
1037,347.0,0.99,0.52,0.18
1039,240.0,1.41,0.61,0.2
1041,610.0,5.78,0.68,2.42
1043,600.0,4.16,0.68,1.67
1045,570.0,3.76,0.65,1.39
1047,582.0,5.89,0.72,2.47
1049,566.0,1.06,0.57,0.34
1051,645.0,1.7,0.767,8.32
1053,580.0,8.9,0.65,3.3
1055,610.0,10.3,0.58,3.5
1057,640.0,9.7,0.65,4.0
1059,524.0,11.4,0.63,3.75
1061,675.0,15.29,0.723,7.46
1063,639.0,14.6,0.717,6.69
1067,692.0,14.27,0.59,5.85
1070,520.0,2.2,0.53,0.6
1072,570.0,7.8,0.65,2.9
1074,540.0,6.3,0.69,2.4
1076,660.0,11.9,0.64,4.9
1078,610.0,7.3,0.72,3.1
1080,660.0,14.2,0.6,5.68
1084,690.0,9.5,0.71,4.6
1086,573.0,4.07,0.69,1.6
1088,558.0,7.91,0.63,2.78
1091,455.0,2.3,0.69,0.72
1093,540.0,8.3,0.71,3.18
1095,390.0,1.1,0.67,0.29
1097,660.0,9.9,0.7,4.6
1099,630.0,4.1,0.75,1.9
1102,640.0,11.5,0.66,4.8
1104,620.0,5.9,0.72,2.7
1106,490.0,3.0,0.61,0.9
1108,710.0,9.5,0.68,4.5
1110,510.0,3.5,0.64,1.1
1113,386.5,1.02,0.677,0.27
1116,590.0,6.9,0.68,2.7
1118,540.0,5.5,0.64,1.9
1120,670.0,14.3,0.65,6.2
1125,688.0,14.26,0.73,7.19
1129,671.0,13.03,0.728,6.36
1131,576.0,10.92,0.724,4.55
1133,650.0,15.09,0.729,7.15
1135,710.0,11.01,0.78,6.08
1139,700.0,2.34,0.45,0.75
1141,688.0,13.2,0.67,6.08
1143,787.0,15.58,0.67,8.22
1145,735.0,15.78,0.6,7.0
1151,605.0,15.2,0.68,6.3
1156,710.0,10.43,0.76,5.63
1161,688.0,16.44,0.712,8.1
1164,740.0,12.51,0.7,6.52
1166,548.0,5.3,0.66,1.9
1168,554.0,5.9,0.619,2.2
1173,621.0,7.76,0.68,3.78
1175,545.0,6.16,0.61,2.11
1177,726.0,10.59,0.68,5.2
1179,694.0,16.36,0.72,8.2
1183,749.0,9.43,0.722,5.07
1185,731.0,13.79,0.703,7.08
1188,741.0,11.12,0.678,5.59
1192,737.0,12.31,0.666,6.35
1196,540.0,6.43,0.68,2.36
1198,626.0,7.25,0.69,3.14
1200,630.0,11.7,0.71,5.26
1203,820.0,8.7,0.77,5.5
1206,956.0,17.03,0.77,12.5
1208,670.0,5.8,0.66,2.6
1210,490.0,1.1,0.53,0.29
1212,513.0,1.674,0.485,0.416
1214,662.0,6.43,0.63,2.68
1225,606.0,8.18,0.75,3.73
1227,658.0,6.54,0.76,3.28
1229,579.0,18.79,0.534,5.8
1231,584.0,15.37,0.591,5.3
1234,670.0,16.85,0.628,7.07
1237,780.0,11.21,0.65,5.67
1239,597.0,9.95,0.61,3.59
1244,646.0,13.86,0.56,5.03
1247,758.0,9.93,0.54,4.06
1257,494.0,14.31,68.0,4.8
1260,650.0,6.27,0.699,2.85
1262,589.0,3.78,0.663,1.48
1269,754.0,12.06,0.62,5.6
1271,563.0,18.2,0.57,5.84
1281,730.0,11.4,0.69,5.7
1284,720.0,13.2,0.65,6.1
1286,760.0,9.78,0.74,5.53
1291,745.0,10.22,0.59,4.48
1293,790.0,10.51,0.61,5.05
1295,657.0,8.42,0.694,3.84
1297,749.0,12.54,0.671,6.3
1299,597.0,2.51,0.73,1.1
1301,785.0,12.34,0.7,6.74
1305,765.0,14.2,0.66,7.17
1313,580.0,15.0,0.65,5.72
1315,560.0,13.0,0.63,4.55
1317,425.0,16.17,67.0,4.59
1319,578.5,9.89,0.6729,3.85
1321,687.5,12.29,0.7118,6.01
1327,714.0,13.22,0.64,6.02
1330,697.0,20.85,0.666,9.67
1332,661.0,16.56,0.65,7.11
1341,564.0,13.0,0.59,4.32
1343,464.0,16.15,68.0,5.1
1346,715.0,6.58,0.72,10.26
1354,661.0,6.21,0.74,9.2
1358,793.0,9.45,0.67,5.04
1361,810.0,13.39,0.7,7.6
1363,640.0,10.44,0.62,4.12
1366,580.0,1.47,0.57,0.48
1368,440.0,0.39,0.47,0.08
1370,690.0,16.59,0.64,7.36
1372,680.0,14.08,0.65,6.2
1376,711.0,12.3,0.76,6.6
1378,662.0,6.45,0.69,3.0
1380,610.0,9.99,0.71,4.36
1383,714.0,15.11,0.72,7.74
1388,703.0,9.89,0.62,4.3
1390,732.0,12.0,0.7,6.1
1393,650.0,8.72,0.73,4.1
1401,704.0,18.08,0.71,9.05
1407,907.0,14.32,0.68,8.83
1409,640.0,7.2,0.58,2.65
1411,640.0,6.47,0.73,3.0
1415,616.0,3.27,0.51,1.02
1417,612.0,4.49,0.62,1.7
1423,739.0,13.73,0.74,7.48
1427,689.0,15.09,0.72,7.53
1430,585.0,8.97,0.73,3.83
1434,760.0,5.33,72.0,2.9
1436,780.0,7.9,55.0,3.4
1438,836.0,10.35,0.678,5.87
1440,853.0,8.71,0.669,4.97
1442,640.0,10.31,0.62,4.08
1444,675.0,12.65,0.63,5.35
1446,683.0,9.6,0.78,5.1
1448,671.0,10.1,0.7,4.8
1450,622.0,14.9,0.71,6.6
1452,567.0,9.05,0.56,2.87
1454,615.0,13.6,0.69,5.77
1459,634.0,15.4,0.69,6.71
1466,680.0,11.3,0.69,5.34
1468,640.0,15.5,0.63,6.27
1477,922.0,6.18,0.756,8.6
1485,670.0,15.2,0.66,6.72
1487,580.0,13.5,0.64,5.01
1494,717.0,15.4,0.72,7.96
1496,699.0,13.43,0.65,6.06
1499,946.0,7.66,0.658,4.76
1501,833.0,16.5,0.737,10.1
1504,646.0,7.13,0.68,3.13
1507,860.0,11.33,0.57,5.56
1509,642.0,14.1,0.66,5.98
1511,650.0,13.7,0.65,5.82
1513,586.0,10.3,0.67,4.01
1515,618.0,7.52,0.65,3.01
1517,709.0,11.71,0.7086,5.8
1519,710.0,14.01,0.71,7.05
1524,641.0,16.13,0.718,7.42
1526,680.0,14.5,0.61,5.95
1529,640.0,11.1,0.66,4.73
1537,830.0,7.6,0.74,4.7
1546,560.0,14.2,0.6,4.77
1550,600.0,8.55,0.62,3.16
1552,484.0,7.58,0.65,2.4
1558,793.6,12.08,0.748,7.17
1566,541.0,15.96,0.65,5.65
1572,650.0,11.46,0.76,5.66
1574,290.0,9.21,0.49,1.31
1576,340.0,7.76,0.64,1.69
1578,901.0,13.4,0.74,8.86
1583,730.0,14.44,0.7,7.45
1590,618.0,8.19,0.697,3.53
1599,730.0,12.45,0.62,5.59
1604,720.0,13.69,0.6,5.94
1609,684.0,8.77,0.65,3.93
1611,707.0,12.24,0.65,5.59
1620,690.0,10.11,0.689,4.81
1624,620.0,8.65,0.73,3.92
1639,346.0,7.65,0.55,1.45
1650,646.0,13.4,0.7,6.1
1652,610.0,7.4,0.64,2.89
1658,741.0,14.34,0.676,7.2
1663,690.0,11.5,0.67,5.38
1667,600.0,6.43,0.67,2.63
1670,630.0,9.12,0.717,4.12
1672,700.0,14.25,0.705,7.03
1674,560.0,4.45,0.63,1.58
1677,708.0,13.68,0.63,6.1
1682,739.4,16.02,0.63,7.42
1685,729.2,15.89,0.62,7.2
1689,776.0,12.0,0.5627,5.24
1695,792.0,12.82,0.73,7.41
1697,813.0,12.3,0.72,7.23
1700,672.0,10.27,0.69,4.78
1702,726.0,10.46,0.64,4.88
1704,524.0,3.1,0.73,1.19
1706,525.0,3.0,0.73,1.14
1709,480.0,1.3,0.7,0.44
1711,704.0,8.1,0.68,3.86
1713,760.0,9.7,0.72,5.33
1715,660.0,16.29,0.71,7.62
1718,664.0,4.8,0.72,2.3
1720,760.0,11.11,0.71,6.0
1722,790.0,6.64,0.59,3.06
1724,700.0,4.62,0.62,2.0
1730,697.0,8.5,75.9,4.5
1733,478.0,5.14,0.43,1.1
1735,669.0,9.88,0.74,4.88
1738,700.0,6.42,0.74,3.33
1740,620.0,3.78,0.63,1.49
1742,559.0,9.89,0.64,3.52
1744,596.0,8.72,0.64,3.33
1746,536.0,13.27,0.62,4.41
1751,680.0,7.78,0.66,3.5
1753,648.0,9.58,0.71,4.41
1757,760.0,12.57,0.74,7.04
1759,800.0,11.6,0.71,6.6
1765,540.0,3.13,0.73,1.25
1769,644.0,6.9,0.68,3.02
1772,860.0,10.8,0.66,6.13
1779,520.0,12.94,0.67,4.59
1782,650.0,7.08,0.7,3.21
1784,410.0,9.37,0.68,2.61
1786,664.0,13.38,0.736,6.54
1789,689.0,2.19,0.64,0.97
1793,541.0,5.45,0.67,1.99
1798,900.0,9.5,0.7,5.99
1805,610.0,12.7,0.598,4.63
1811,728.0,11.19,0.76,6.18
1818,712.0,3.48,0.57,1.66
1821,695.0,13.95,0.65,6.34
1823,698.0,10.68,0.69,5.15
1827,746.0,8.96,56.82,3.8
1830,607.0,7.46,69.1,3.26
1834,690.0,12.3,0.738,6.3
1842,670.0,12.66,0.65,5.49
1844,526.0,6.83,0.5,1.8
1850,517.0,3.21,0.69,1.15
1855,708.0,5.54,0.788,3.09
1858,775.0,11.88,0.747,6.88
1861,810.0,9.22,0.6,4.49
1870,660.0,11.91,0.69,5.39
1872,545.0,2.15,0.4093,0.56
1874,587.0,7.36,0.69,3.0
1877,686.0,15.05,64.53,6.66
1879,629.0,15.37,64.02,6.19
1888,115.0,2.7,0.36,0.113
1893,660.0,13.44,0.6,5.37
1898,660.0,12.56,0.63,5.28
1901,797.0,14.39,0.7027,8.06
1906,650.0,11.43,0.62,4.58
1908,690.0,15.36,0.5,5.25
1911,320.0,0.78,0.41,0.102
1913,680.0,11.24,0.6,4.6
1915,710.0,14.28,0.6,6.12
1917,766.0,11.7,0.756,6.78
1920,608.0,10.05,0.736,4.5
1922,677.0,13.37,0.753,6.82
1924,599.0,13.07,0.723,5.66
1926,694.0,7.72,0.803,4.3
1928,766.0,11.7,0.756,6.78
1930,770.0,11.25,0.76,6.6
1933,605.0,5.46,0.7,2.3
1935,640.0,0.82,0.58,0.3
1938,630.0,2.55,0.6,0.96
1944,681.0,11.3,0.732,5.6
1948,700.0,6.37,0.74,3.31
1950,750.0,14.0,0.77,8.01
1952,680.0,10.77,0.63,4.6
1954,680.0,12.55,0.63,5.4
1956,610.0,12.66,0.56,4.4
1958,650.0,14.6,0.66,6.2
1961,680.0,13.2,0.67,6.01
1963,764.0,12.2,0.77,7.2
1965,672.0,11.9,0.731,5.9
1971,845.0,12.3,0.68,7.06
1974,650.0,12.3,0.68,5.43
1976,500.0,13.08,0.69,4.54
1978,640.0,11.04,0.749,5.29
1980,620.0,10.44,0.649,4.2
1982,494.0,5.8,0.7,2.0
1984,509.0,9.3,0.68,3.2
1986,780.0,12.5,0.67,6.52
1988,839.0,13.5,0.66,7.47
1990,855.0,15.0,0.67,8.59
1992,920.0,15.5,0.68,9.69
2000,670.0,11.04,0.65,4.83
2008,700.0,10.75,0.67,5.04
2013,680.0,6.8,0.72,3.33
2015,432.0,12.0,0.69,3.58
2017,762.0,10.6,0.75,6.1
2019,610.0,8.89,0.67,3.62
2025,640.0,6.4,0.72,2.93
2028,656.0,7.1,0.65,3.01
2032,720.0,12.9,0.53,4.9
2034,680.0,12.0,0.64,5.2
2039,660.0,12.96,0.68,5.78
2041,565.0,11.71,0.71,4.71
2044,728.0,10.51,0.73,5.55
2046,758.0,9.4,0.6645,4.7
2053,450.0,1.77,0.7,0.56
2057,710.0,14.86,0.75,7.91
2059,700.0,8.88,0.66,4.1
2062,770.0,8.5,0.65,4.25
2067,788.0,11.87,0.68,8.04
2073,670.0,13.5,0.72,6.67
2081,695.0,12.21,0.72,6.15
2085,760.0,7.97,0.71,4.3
2087,883.0,12.8,0.67,7.57
2095,648.0,9.49,0.66,4.03
2097,667.0,16.73,0.65,7.23
2105,610.0,7.1,0.59,2.6
2107,670.0,11.2,0.69,5.19
2109,670.0,10.84,0.65,4.73
2111,671.0,10.48,0.67,4.71
2113,769.0,13.7,0.59,6.24
2115,690.0,9.5,0.75,4.9
2119,587.0,7.89,0.722,3.34
2122,780.0,15.54,0.62,7.6
2128,650.0,8.2,0.85,4.52
2130,700.0,9.17,0.78,4.99
2132,580.0,7.3,0.62,2.6
2137,741.0,13.11,0.65,6.37
2139,655.0,9.01,0.68,4.01
2141,685.0,17.61,0.59,7.12
2155,620.0,7.38,0.74,3.38
2157,190.0,0.65,0.52,0.063
2159,610.0,10.5,0.68,4.4
2161,742.0,12.79,0.7467,7.09
2170,568.0,2.4,0.75,10.4
2178,500.0,7.53,0.63,2.38
2181,704.0,8.61,0.717,4.35
2185,590.0,10.1,0.71,4.2
2188,725.0,7.54,0.698,3.81
2191,729.0,5.09,0.711,2.64
2194,630.0,8.6,0.75,4.11
2198,640.0,4.96,0.72,2.28
2200,750.0,11.36,0.68,5.81
2202,738.1,14.01,0.66,6.81
2205,828.0,14.11,0.74,8.65
2210,640.0,6.5,0.52,2.2
2212,640.0,7.6,0.68,3.3
2217,750.0,11.01,0.71,5.81
2224,625.0,2.59,0.53,0.86
2228,664.0,10.79,0.691,4.95
2231,760.0,15.6,0.59,6.3
2233,840.0,7.56,68.5,4.35
2235,850.0,6.08,76.0,3.93
2237,755.0,3.45,52.4,1.35
2241,558.0,13.3,0.47,4.1
2243,670.0,15.23,0.758,7.69
2245,744.0,9.2,0.7559,5.18
2247,497.3,2.46,0.37,0.46
2253,9680.0,16.41,0.6,6.17
2256,363.0,1.23,0.53,0.24
2259,880.0,14.5,0.68,8.67
2261,731.8,13.26,0.723,7.0
2263,565.0,11.71,0.71,4.71
2267,770.0,9.69,0.7,5.15
2272,740.0,8.8,0.65,4.24
2274,653.0,14.5,0.742,7.1
2277,609.0,6.4,0.717,2.8
2280,627.0,6.89,0.715,3.09
2282,593.0,1.02,0.78,0.77
2284,600.0,7.61,0.662,3.08
2286,584.0,0.98,0.771,0.45
2288,700.0,14.39,0.66,6.65
2290,670.0,6.6,0.7,3.11
2294,650.0,6.68,0.71,3.08
2297,584.0,12.7,0.605,4.49
2300,628.0,12.06,0.65,5.0
2309,748.0,5.23,0.7,8.59
2315,722.0,11.2,0.571,4.62
2318,720.0,8.16,0.72,4.23
2320,773.0,14.74,0.7186,8.2
2322,735.0,13.4,0.66,6.53
2328,620.0,12.22,0.69,5.19
2332,721.0,9.82,0.67,4.57
2336,743.0,11.54,0.7,6.11
2338,758.0,9.4,0.6645,4.7
2340,698.0,12.79,0.66,5.9
2344,653.0,17.85,0.64,7.5
2360,667.0,13.29,0.67,5.94
2367,751.0,17.05,0.706,9.02
2370,767.0,15.11,0.707,8.19
2372,670.0,17.82,0.67,7.88
2374,680.0,13.48,0.68,6.14
2381,687.0,10.9,0.65,4.9
2383,641.0,10.9,0.725,5.05
2389,690.0,5.99,0.69,2.9
2395,805.0,13.34,0.69,7.41
2400,690.0,10.5,0.73,5.34
2402,700.0,14.26,0.7,7.02
2404,570.0,14.2,0.6,4.79
2406,640.0,16.79,0.58,6.18
2408,600.0,13.54,0.64,5.25
2410,620.0,13.4,0.62,5.7
2413,410.0,8.8,0.57,2.1
2418,658.0,12.7,0.6,4.98
2420,678.0,10.1,0.61,4.22
2422,753.0,11.2,0.725,6.11
2425,710.0,12.27,0.695,6.05
2428,672.0,9.63,0.719,4.65
2430,650.0,10.6,0.71,4.9
2433,547.0,4.31,0.692,1.63
2435,634.0,8.27,0.72,3.78
2443,770.0,10.04,0.73,5.65
2445,925.0,15.01,0.69,9.58
2450,370.0,3.3,0.52,0.6
2452,668.0,10.88,0.61,4.41
2454,600.0,4.29,0.67,1.75
2456,570.0,7.6,0.62,2.7
2460,670.0,2.8,0.62,1.4
2462,712.0,3.5,0.57,1.7
2464,750.0,8.0,0.55,3.9
2466,920.0,4.26,0.98,3.83
2469,680.0,9.4,0.85,5.43
2471,550.0,9.2,0.75,3.79
2475,440.0,8.9,0.52,2.0
2477,650.0,13.6,0.71,6.3
2479,635.0,16.95,0.66,7.1
2484,612.0,12.68,0.73,5.7
2486,550.0,3.71,0.75,1.53
2488,510.0,2.63,0.75,1.0
2491,770.0,10.07,0.74,5.8
2493,790.0,10.68,0.75,6.3
2495,810.0,12.24,0.77,7.7
2497,852.0,14.8,0.66,8.37
2499,818.0,14.5,0.69,8.18
2508,582.0,13.16,0.73,5.56
2525,550.0,5.22,0.66,1.88
2530,885.0,15.2,0.68,9.22
2537,610.0,8.31,0.66,3.34
2539,695.0,13.22,0.683,6.28
2542,737.0,18.3,0.729,9.83
2546,731.0,19.8,0.72,10.4
2552,122.0,2.18,0.346,0.092
2554,132.0,2.31,0.331,0.101
2557,90.0,1.74,0.38,0.06
2559,756.0,13.21,0.75,7.5
2561,705.0,10.27,0.73,5.3
2567,682.0,7.01,0.69,3.3
2569,710.0,12.11,0.62,5.33
2571,740.0,14.71,0.63,6.86
2573,580.0,3.72,0.66,1.43
2575,620.0,7.92,0.68,3.34
2577,105.0,1.59,0.359,0.06
2579,113.0,1.38,0.34,0.053
2583,420.0,0.96,0.55,0.22
2585,610.0,10.29,0.65,4.08
2589,560.0,8.1,0.69,3.1
2591,670.0,10.8,0.74,5.4
2593,456.0,4.3,0.72,1.5
2595,498.0,7.4,0.73,2.8
2597,579.0,13.39,0.71,5.5
2600,500.0,2.66,0.64,0.86
2604,751.0,10.0,0.586,4.38
2609,699.0,12.89,0.696,6.27
2611,635.0,14.01,0.6,5.34
2614,642.0,15.14,0.62,6.01
2624,650.0,17.59,0.68,7.87
2626,610.0,12.92,0.65,5.1
2628,791.0,5.94,0.67,4.51
2630,774.0,14.19,0.45,6.8
2632,731.0,7.87,0.7,5.8
2639,710.0,9.6,0.69,4.6
2641,680.0,12.5,0.69,5.8
2643,592.0,14.64,0.692,5.85
2649,670.0,7.35,0.71,3.5
2659,660.0,10.6,0.65,4.55
2663,630.0,8.9,0.67,3.75
2665,757.0,7.87,0.67,5.7
2667,510.0,0.8,0.48,0.19
2669,650.0,10.3,0.5,3.35
2671,97.0,1.6,0.38,0.06
2673,95.0,1.58,0.35,0.05
2675,653.0,10.8,0.672,4.7
2677,655.0,15.14,0.64,6.4
2679,630.0,10.26,0.659,4.3
2686,795.0,18.42,0.7473,10.95
2689,878.0,12.02,0.73,7.68
2691,827.0,16.27,0.69,9.24
2693,548.0,8.13,0.69,3.09
2697,807.0,16.07,0.744,9.63
2701,739.0,11.7,0.653,5.65
2704,728.0,11.5,0.626,5.24
2707,670.0,16.9,0.66,7.47
2709,650.0,15.6,0.65,6.59
2717,612.0,10.77,0.74,4.9
2720,570.0,6.8,0.69,2.7
2722,610.0,12.5,0.62,4.8
2724,788.0,15.79,0.57,7.09
2726,773.0,15.57,0.54,6.5
2737,610.0,11.5,0.67,4.8
2740,480.0,2.1,0.69,0.7
2742,550.0,8.6,0.67,3.2
2754,774.0,5.67,0.656,5.85
2767,694.0,13.68,0.73,6.96
2771,650.0,6.62,0.62,2.67
2785,893.0,8.1,0.74,10.6
2793,714.0,10.5,0.567,4.24
2795,695.0,6.5,0.657,2.96
2798,640.0,9.2,0.66,3.9
2801,620.0,9.8,0.6,3.63
2804,730.0,15.81,0.72,8.34
2806,620.0,10.61,0.66,4.36
2808,590.0,10.28,0.67,4.09
2810,640.0,9.83,0.66,4.15
2814,700.0,10.7,0.69,5.2
2816,630.0,4.4,0.71,2.0
2820,674.0,14.0,0.64,6.05
2822,813.0,11.0,0.701,6.29
2824,695.0,7.1,0.73,3.6
2829,843.0,10.4,0.658,5.74
2832,819.0,14.7,0.695,8.37
2834,707.0,9.03,0.681,4.35
2840,690.0,12.45,0.7,6.02
2842,651.0,11.58,0.68,5.13
2851,543.0,4.43,0.68,1.65
2855,568.0,7.38,0.65,2.72
2871,701.0,12.7,0.66,5.87
2875,630.0,10.63,0.64,4.31
2877,590.0,4.78,0.57,1.6
2879,620.0,12.11,0.61,4.53
2881,630.0,9.44,0.62,3.69
2883,640.89,4.24,0.369,1.18
2885,626.0,15.56,0.7,6.88
2889,650.0,7.82,0.66,3.4
2896,572.0,13.51,0.651,5.03
2902,577.46,2.89,0.53,1.04
2906,510.0,10.89,0.668,3.71
2910,710.0,18.68,0.707,9.4
2912,725.0,10.38,0.62,4.58
2914,632.0,6.43,0.65,2.53
2931,661.0,17.93,0.74,8.9
2934,649.0,18.53,0.71,8.49
2938,639.0,11.63,0.68,5.08
2940,584.0,17.5,0.538,5.5
2942,569.0,19.56,0.533,5.93
2947,700.0,13.8,0.77,7.4
2949,660.0,15.0,0.74,7.3
2963,710.0,9.46,0.64,4.31
2969,672.0,15.0,0.77,7.76
2971,640.0,7.63,0.72,3.5
2988,620.0,16.5,0.69,7.05
2995,520.0,4.5,0.63,1.48
2997,600.0,15.66,0.65,6.11
3001,720.0,10.8,0.732,5.7
3004,936.0,8.0,0.72,3.9
3008,671.0,13.35,0.693,6.21
3021,870.0,8.28,0.759,10.93
3024,672.0,16.91,0.717,8.15
3029,748.0,10.06,0.68,5.11
3034,791.0,15.79,0.67,8.38
3039,591.0,8.6,0.73,3.7
3051,642.0,13.23,0.711,6.05
3055,617.0,8.33,0.7,3.6
3058,762.0,13.0,0.65,6.46
3063,943.0,13.3,0.7,8.78
3069,360.0,0.34,0.462,0.06
3072,530.0,3.52,0.534,1.04
3075,640.0,5.92,0.526,2.08
3078,653.0,19.96,0.694,9.03
3081,664.0,5.42,0.75,2.7
3091,500.0,7.77,0.59,2.29
3095,448.0,10.5,0.58,3.5
3101,543.0,9.2,0.72,3.6
3114,604.0,17.76,0.57,6.1
3116,589.0,14.8,0.59,5.11
3121,474.0,8.9,0.59,3.1
3123,452.0,7.6,0.59,2.6
3132,743.0,15.0,0.66,7.36
3140,473.0,13.39,0.53,3.5
3144,520.0,13.9,0.57,5.2
3148,600.0,12.9,0.68,5.3
3151,634.0,18.63,0.63,7.41
3155,690.0,8.09,0.68,3.78
3158,590.0,6.69,0.53,2.08
3162,620.0,7.33,0.63,2.83
3167,620.0,5.85,0.68,2.45
3170,560.0,3.67,0.67,1.36
3173,0.49,7.7,0.47,1.87
3186,0.383,4.48,0.52,2.6
3197,446.0,15.9,0.58,4.6
3199,531.8,8.91,0.69,3.29
3203,480.0,12.3,0.61,4.0
3205,424.0,21.4,0.49,4.9
3210,600.0,5.4,0.71,2.29
3213,570.0,6.36,0.68,2.46
3215,560.0,6.63,0.7,2.65
3217,620.0,7.5,0.72,3.36
3223,200.0,0.54,0.36,0.04
3228,490.0,9.78,0.48,2.29
3231,390.0,6.45,0.54,1.38
3245,391.0,9.06,0.55,1.96
3252,520.0,6.76,0.64,2.23
3338,480.0,2.06,0.72,0.71
3379,550.0,1.61,0.74,0.65
3425,450.0,0.31,0.83,0.11
3671,329.0,7.11,0.54,1.26
3712,510.0,1.84,0.67,0.63
3846,710.0,5.15,0.68,2.01
3849,670.0,9.68,0.71,4.47
3863,601.0,9.33,0.7358,6.38
3866,579.0,7.61,0.732,3.2
3868,699.0,6.36,0.757,3.4
3870,750.0,8.3,0.64,4.0
3872,730.0,7.3,0.63,3.5
3874,470.0,1.08,0.65,0.33
3876,550.0,3.87,0.68,1.47
3953,650.0,9.44,0.7,4.34
3959,746.0,9.22,0.77,10.4
3963,695.0,7.8,0.78,8.34
3966,543.0,8.85,0.56,2.68
3999,630.0,19.73,0.656,8.15
4003,600.0,17.11,0.702,7.21
4007,607.0,16.47,0.702,7.01
4010,800.0,13.7,0.63,7.0
4012,700.0,13.2,0.68,6.2
4077,470.0,5.5,0.46,2.9
4126,520.0,4.28,0.58,1.6
4129,680.0,4.68,0.6,2.4
4131,610.0,3.5,0.6,1.6
4153,500.0,2.3,0.63,0.9
4177,422.0,11.12,0.557,2.61
4181,410.0,1.97,0.527,1.01
4233,610.0,11.91,0.66,4.83
4237,590.0,9.83,0.61,3.52
4239,728.0,14.89,0.7,7.58
4241,939.0,10.17,0.75,5.31
4245,960.0,6.16,0.53,3.1
4247,650.0,4.42,0.7,2.0
4249,602.0,2.0,0.72,0.87
4252,749.0,7.87,0.79,9.1
4310,511.0,2.23,0.52,0.61
4313,532.0,4.8,0.74,1.9
4316,627.0,1.49,0.782,0.73
4318,760.0,12.25,0.72,6.7
4320,700.0,14.22,0.6,6.03
4322,780.0,14.38,0.64,7.17
4324,733.0,14.7,0.71,7.7
4326,610.0,10.28,0.7,4.41
4330,690.0,11.46,0.72,5.69
4333,816.0,12.61,0.63,6.44
4335,724.0,6.7,0.74,3.6
4337,541.0,6.7,0.7,2.5
4339,610.0,12.7,0.72,5.6
4341,642.0,11.26,0.68,4.91
4343,656.0,10.01,0.71,4.67
4345,735.0,16.45,0.68,8.08
4349,670.0,14.86,0.62,6.18
4351,704.0,14.2,0.7141,7.14
4353,784.0,9.99,0.782,6.12
4358,742.0,14.6,0.642,6.95
4360,710.0,15.6,0.667,7.39
4363,580.0,10.7,0.58,3.6
4365,680.0,13.5,0.67,6.15
4370,640.0,13.0,0.72,5.99
4372,650.0,10.5,0.65,4.43
4374,637.0,11.199,0.73,5.209
4376,654.0,10.08,0.724,4.763
4382,650.0,9.15,0.67,3.97
4384,620.0,9.56,0.68,4.03
4386,660.0,6.77,0.67,2.96
4388,650.0,7.87,0.67,3.41
4390,660.0,7.83,0.67,3.46
4392,680.0,8.64,0.71,4.15
4394,600.0,2.98,0.55,0.99
4396,730.0,13.14,0.66,6.36
4399,600.0,2.52,0.7407,1.12
4402,560.0,3.76,0.74,1.55
4404,610.0,6.97,0.738,3.12
4417,620.0,8.25,0.68,3.44
4419,740.0,14.56,0.68,7.39
4423,667.0,12.85,0.71,6.09
4425,641.0,12.37,0.66,5.21